"rt","key_press","trial_type","trial_index","time_elapsed","internal_node_id","subject","condition","workerId","assginementId","hitId","view_history","stimulus","questionNo","questionOrder","version","task","testNo","testOrder","correct"
"3843","32","text","0","3853","0.0-0.0-0.0","afCW5iTivQWvu","intuitive","A4J4GGMKJ68L0","3YT88D1N08Z4K050P4I3MENS0MRK32","3YT88D1N08Z4K050P4I3MENS0MRK32","","","","","","","","",""
"85825","","instructions","1","89685","0.0-1.0","afCW5iTivQWvu","intuitive","A4J4GGMKJ68L0","3YT88D1N08Z4K050P4I3MENS0MRK32","3YT88D1N08Z4K050P4I3MENS0MRK32","[{""page_index"":0,""viewing_time"":8357},{""page_index"":1,""viewing_time"":11264},{""page_index"":2,""viewing_time"":4380},{""page_index"":3,""viewing_time"":10240},{""page_index"":4,""viewing_time"":11949},{""page_index"":5,""viewing_time"":6843},{""page_index"":6,""viewing_time"":7025},{""page_index"":7,""viewing_time"":25765}]","","","","","","","",""
"5542","32","single-stim","2","95238","0.0-2.0-0.0","afCW5iTivQWvu","intuitive","A4J4GGMKJ68L0","3YT88D1N08Z4K050P4I3MENS0MRK32","3YT88D1N08Z4K050P4I3MENS0MRK32","","img/1_source.png","1","0","source","gotit","","",""
"3111","74","single-stim","3","98356","0.0-2.0-2.0-0.0","afCW5iTivQWvu","intuitive","A4J4GGMKJ68L0","3YT88D1N08Z4K050P4I3MENS0MRK32","3YT88D1N08Z4K050P4I3MENS0MRK32","","img/1_source.png","1","0","source","test","3","0","1"
"2473","74","single-stim","4","100833","0.0-2.0-2.0-1.0","afCW5iTivQWvu","intuitive","A4J4GGMKJ68L0","3YT88D1N08Z4K050P4I3MENS0MRK32","3YT88D1N08Z4K050P4I3MENS0MRK32","","img/1_source.png","1","0","source","test","2","1","1"
"2763","70","single-stim","5","103599","0.0-2.0-2.0-2.0","afCW5iTivQWvu","intuitive","A4J4GGMKJ68L0","3YT88D1N08Z4K050P4I3MENS0MRK32","3YT88D1N08Z4K050P4I3MENS0MRK32","","img/1_source.png","1","0","source","test","1","2","1"
"4619","74","single-stim","6","108221","0.0-2.0-2.0-3.0","afCW5iTivQWvu","intuitive","A4J4GGMKJ68L0","3YT88D1N08Z4K050P4I3MENS0MRK32","3YT88D1N08Z4K050P4I3MENS0MRK32","","img/1_source.png","1","0","source","test","0","3","0"
"61722","32","single-stim","7","169944","0.0-3.0-0.0","afCW5iTivQWvu","intuitive","A4J4GGMKJ68L0","3YT88D1N08Z4K050P4I3MENS0MRK32","3YT88D1N08Z4K050P4I3MENS0MRK32","","img/2_source.png","2","1","source","gotit","","",""
"1983","74","single-stim","8","171929","0.0-3.0-2.0-0.0","afCW5iTivQWvu","intuitive","A4J4GGMKJ68L0","3YT88D1N08Z4K050P4I3MENS0MRK32","3YT88D1N08Z4K050P4I3MENS0MRK32","","img/2_source.png","2","1","source","test","2","0","1"
"3286","70","single-stim","9","175217","0.0-3.0-2.0-1.0","afCW5iTivQWvu","intuitive","A4J4GGMKJ68L0","3YT88D1N08Z4K050P4I3MENS0MRK32","3YT88D1N08Z4K050P4I3MENS0MRK32","","img/2_source.png","2","1","source","test","1","1","1"
"2151","70","single-stim","10","177370","0.0-3.0-2.0-2.0","afCW5iTivQWvu","intuitive","A4J4GGMKJ68L0","3YT88D1N08Z4K050P4I3MENS0MRK32","3YT88D1N08Z4K050P4I3MENS0MRK32","","img/2_source.png","2","1","source","test","0","2","1"
"869","74","single-stim","11","178241","0.0-3.0-2.0-3.0","afCW5iTivQWvu","intuitive","A4J4GGMKJ68L0","3YT88D1N08Z4K050P4I3MENS0MRK32","3YT88D1N08Z4K050P4I3MENS0MRK32","","img/2_source.png","2","1","source","test","3","3","1"
"54866","32","single-stim","12","233108","0.0-4.0-0.0","afCW5iTivQWvu","intuitive","A4J4GGMKJ68L0","3YT88D1N08Z4K050P4I3MENS0MRK32","3YT88D1N08Z4K050P4I3MENS0MRK32","","img/4_source.png","4","2","source","gotit","","",""
"3421","70","single-stim","13","236531","0.0-4.0-2.0-0.0","afCW5iTivQWvu","intuitive","A4J4GGMKJ68L0","3YT88D1N08Z4K050P4I3MENS0MRK32","3YT88D1N08Z4K050P4I3MENS0MRK32","","img/4_source.png","4","2","source","test","1","0","1"
"1074","74","single-stim","14","237606","0.0-4.0-2.0-1.0","afCW5iTivQWvu","intuitive","A4J4GGMKJ68L0","3YT88D1N08Z4K050P4I3MENS0MRK32","3YT88D1N08Z4K050P4I3MENS0MRK32","","img/4_source.png","4","2","source","test","2","1","1"
"769","74","single-stim","15","238376","0.0-4.0-2.0-2.0","afCW5iTivQWvu","intuitive","A4J4GGMKJ68L0","3YT88D1N08Z4K050P4I3MENS0MRK32","3YT88D1N08Z4K050P4I3MENS0MRK32","","img/4_source.png","4","2","source","test","3","2","1"
"900","70","single-stim","16","239280","0.0-4.0-2.0-3.0","afCW5iTivQWvu","intuitive","A4J4GGMKJ68L0","3YT88D1N08Z4K050P4I3MENS0MRK32","3YT88D1N08Z4K050P4I3MENS0MRK32","","img/4_source.png","4","2","source","test","0","3","1"
"22714","32","single-stim","17","261995","0.0-5.0-0.0","afCW5iTivQWvu","intuitive","A4J4GGMKJ68L0","3YT88D1N08Z4K050P4I3MENS0MRK32","3YT88D1N08Z4K050P4I3MENS0MRK32","","img/3_source.png","3","3","source","gotit","","",""
"2226","74","single-stim","18","264223","0.0-5.0-2.0-0.0","afCW5iTivQWvu","intuitive","A4J4GGMKJ68L0","3YT88D1N08Z4K050P4I3MENS0MRK32","3YT88D1N08Z4K050P4I3MENS0MRK32","","img/3_source.png","3","3","source","test","3","0","1"
"5088","70","single-stim","19","269312","0.0-5.0-2.0-1.0","afCW5iTivQWvu","intuitive","A4J4GGMKJ68L0","3YT88D1N08Z4K050P4I3MENS0MRK32","3YT88D1N08Z4K050P4I3MENS0MRK32","","img/3_source.png","3","3","source","test","0","1","1"
"2246","74","single-stim","20","271560","0.0-5.0-2.0-2.0","afCW5iTivQWvu","intuitive","A4J4GGMKJ68L0","3YT88D1N08Z4K050P4I3MENS0MRK32","3YT88D1N08Z4K050P4I3MENS0MRK32","","img/3_source.png","3","3","source","test","2","2","1"
"1837","70","single-stim","21","273398","0.0-5.0-2.0-3.0","afCW5iTivQWvu","intuitive","A4J4GGMKJ68L0","3YT88D1N08Z4K050P4I3MENS0MRK32","3YT88D1N08Z4K050P4I3MENS0MRK32","","img/3_source.png","3","3","source","test","1","3","1"
"8268","32","single-stim","22","281668","0.0-6.0-0.0","afCW5iTivQWvu","intuitive","A4J4GGMKJ68L0","3YT88D1N08Z4K050P4I3MENS0MRK32","3YT88D1N08Z4K050P4I3MENS0MRK32","","img/0_source.png","0","4","source","gotit","","",""
"1625","74","single-stim","23","283295","0.0-6.0-2.0-0.0","afCW5iTivQWvu","intuitive","A4J4GGMKJ68L0","3YT88D1N08Z4K050P4I3MENS0MRK32","3YT88D1N08Z4K050P4I3MENS0MRK32","","img/0_source.png","0","4","source","test","3","0","1"
"914","70","single-stim","24","284210","0.0-6.0-2.0-1.0","afCW5iTivQWvu","intuitive","A4J4GGMKJ68L0","3YT88D1N08Z4K050P4I3MENS0MRK32","3YT88D1N08Z4K050P4I3MENS0MRK32","","img/0_source.png","0","4","source","test","0","1","1"
"897","74","single-stim","25","285108","0.0-6.0-2.0-2.0","afCW5iTivQWvu","intuitive","A4J4GGMKJ68L0","3YT88D1N08Z4K050P4I3MENS0MRK32","3YT88D1N08Z4K050P4I3MENS0MRK32","","img/0_source.png","0","4","source","test","2","2","1"
"745","70","single-stim","26","285857","0.0-6.0-2.0-3.0","afCW5iTivQWvu","intuitive","A4J4GGMKJ68L0","3YT88D1N08Z4K050P4I3MENS0MRK32","3YT88D1N08Z4K050P4I3MENS0MRK32","","img/0_source.png","0","4","source","test","1","3","1"
"3923","32","single-stim","27","289783","0.0-7.0-0.0","afCW5iTivQWvu","intuitive","A4J4GGMKJ68L0","3YT88D1N08Z4K050P4I3MENS0MRK32","3YT88D1N08Z4K050P4I3MENS0MRK32","","img/2_switch.png","2","0","switch","gotit","","",""
"1120","70","single-stim","28","290905","0.0-7.0-2.0-0.0","afCW5iTivQWvu","intuitive","A4J4GGMKJ68L0","3YT88D1N08Z4K050P4I3MENS0MRK32","3YT88D1N08Z4K050P4I3MENS0MRK32","","img/2_switch.png","2","0","switch","test","0","0","1"
"990","74","single-stim","29","291897","0.0-7.0-2.0-1.0","afCW5iTivQWvu","intuitive","A4J4GGMKJ68L0","3YT88D1N08Z4K050P4I3MENS0MRK32","3YT88D1N08Z4K050P4I3MENS0MRK32","","img/2_switch.png","2","0","switch","test","2","1","1"
"708","70","single-stim","30","292607","0.0-7.0-2.0-2.0","afCW5iTivQWvu","intuitive","A4J4GGMKJ68L0","3YT88D1N08Z4K050P4I3MENS0MRK32","3YT88D1N08Z4K050P4I3MENS0MRK32","","img/2_switch.png","2","0","switch","test","1","2","1"
"1452","74","single-stim","31","294060","0.0-7.0-2.0-3.0","afCW5iTivQWvu","intuitive","A4J4GGMKJ68L0","3YT88D1N08Z4K050P4I3MENS0MRK32","3YT88D1N08Z4K050P4I3MENS0MRK32","","img/2_switch.png","2","0","switch","test","3","3","1"
"2610","32","single-stim","32","296672","0.0-8.0-0.0","afCW5iTivQWvu","intuitive","A4J4GGMKJ68L0","3YT88D1N08Z4K050P4I3MENS0MRK32","3YT88D1N08Z4K050P4I3MENS0MRK32","","img/1_switch.png","1","1","switch","gotit","","",""
"1187","70","single-stim","33","297860","0.0-8.0-2.0-0.0","afCW5iTivQWvu","intuitive","A4J4GGMKJ68L0","3YT88D1N08Z4K050P4I3MENS0MRK32","3YT88D1N08Z4K050P4I3MENS0MRK32","","img/1_switch.png","1","1","switch","test","0","0","1"
"1541","70","single-stim","34","299402","0.0-8.0-2.0-1.0","afCW5iTivQWvu","intuitive","A4J4GGMKJ68L0","3YT88D1N08Z4K050P4I3MENS0MRK32","3YT88D1N08Z4K050P4I3MENS0MRK32","","img/1_switch.png","1","1","switch","test","2","1","0"
"3193","74","single-stim","35","302596","0.0-8.0-2.0-2.0","afCW5iTivQWvu","intuitive","A4J4GGMKJ68L0","3YT88D1N08Z4K050P4I3MENS0MRK32","3YT88D1N08Z4K050P4I3MENS0MRK32","","img/1_switch.png","1","1","switch","test","3","2","1"
"719","70","single-stim","36","303318","0.0-8.0-2.0-3.0","afCW5iTivQWvu","intuitive","A4J4GGMKJ68L0","3YT88D1N08Z4K050P4I3MENS0MRK32","3YT88D1N08Z4K050P4I3MENS0MRK32","","img/1_switch.png","1","1","switch","test","1","3","1"
"5122","32","single-stim","37","308441","0.0-9.0-0.0","afCW5iTivQWvu","intuitive","A4J4GGMKJ68L0","3YT88D1N08Z4K050P4I3MENS0MRK32","3YT88D1N08Z4K050P4I3MENS0MRK32","","img/3_switch.png","3","2","switch","gotit","","",""
"1911","74","single-stim","38","310354","0.0-9.0-2.0-0.0","afCW5iTivQWvu","intuitive","A4J4GGMKJ68L0","3YT88D1N08Z4K050P4I3MENS0MRK32","3YT88D1N08Z4K050P4I3MENS0MRK32","","img/3_switch.png","3","2","switch","test","3","0","1"
"2168","74","single-stim","39","312523","0.0-9.0-2.0-1.0","afCW5iTivQWvu","intuitive","A4J4GGMKJ68L0","3YT88D1N08Z4K050P4I3MENS0MRK32","3YT88D1N08Z4K050P4I3MENS0MRK32","","img/3_switch.png","3","2","switch","test","2","1","1"
"1510","70","single-stim","40","314037","0.0-9.0-2.0-2.0","afCW5iTivQWvu","intuitive","A4J4GGMKJ68L0","3YT88D1N08Z4K050P4I3MENS0MRK32","3YT88D1N08Z4K050P4I3MENS0MRK32","","img/3_switch.png","3","2","switch","test","0","2","1"
"1687","70","single-stim","41","315726","0.0-9.0-2.0-3.0","afCW5iTivQWvu","intuitive","A4J4GGMKJ68L0","3YT88D1N08Z4K050P4I3MENS0MRK32","3YT88D1N08Z4K050P4I3MENS0MRK32","","img/3_switch.png","3","2","switch","test","1","3","1"
"2870","32","single-stim","42","318597","0.0-10.0-0.0","afCW5iTivQWvu","intuitive","A4J4GGMKJ68L0","3YT88D1N08Z4K050P4I3MENS0MRK32","3YT88D1N08Z4K050P4I3MENS0MRK32","","img/0_switch.png","0","3","switch","gotit","","",""
"931","70","single-stim","43","319530","0.0-10.0-2.0-0.0","afCW5iTivQWvu","intuitive","A4J4GGMKJ68L0","3YT88D1N08Z4K050P4I3MENS0MRK32","3YT88D1N08Z4K050P4I3MENS0MRK32","","img/0_switch.png","0","3","switch","test","0","0","1"
"697","74","single-stim","44","320228","0.0-10.0-2.0-1.0","afCW5iTivQWvu","intuitive","A4J4GGMKJ68L0","3YT88D1N08Z4K050P4I3MENS0MRK32","3YT88D1N08Z4K050P4I3MENS0MRK32","","img/0_switch.png","0","3","switch","test","3","1","1"
"668","74","single-stim","45","320898","0.0-10.0-2.0-2.0","afCW5iTivQWvu","intuitive","A4J4GGMKJ68L0","3YT88D1N08Z4K050P4I3MENS0MRK32","3YT88D1N08Z4K050P4I3MENS0MRK32","","img/0_switch.png","0","3","switch","test","2","2","1"
"629","70","single-stim","46","321528","0.0-10.0-2.0-3.0","afCW5iTivQWvu","intuitive","A4J4GGMKJ68L0","3YT88D1N08Z4K050P4I3MENS0MRK32","3YT88D1N08Z4K050P4I3MENS0MRK32","","img/0_switch.png","0","3","switch","test","1","3","1"
"1570","32","single-stim","47","323100","0.0-11.0-0.0","afCW5iTivQWvu","intuitive","A4J4GGMKJ68L0","3YT88D1N08Z4K050P4I3MENS0MRK32","3YT88D1N08Z4K050P4I3MENS0MRK32","","img/4_switch.png","4","4","switch","gotit","","",""
"920","70","single-stim","48","324022","0.0-11.0-2.0-0.0","afCW5iTivQWvu","intuitive","A4J4GGMKJ68L0","3YT88D1N08Z4K050P4I3MENS0MRK32","3YT88D1N08Z4K050P4I3MENS0MRK32","","img/4_switch.png","4","4","switch","test","0","0","1"
"720","74","single-stim","49","324746","0.0-11.0-2.0-1.0","afCW5iTivQWvu","intuitive","A4J4GGMKJ68L0","3YT88D1N08Z4K050P4I3MENS0MRK32","3YT88D1N08Z4K050P4I3MENS0MRK32","","img/4_switch.png","4","4","switch","test","2","1","1"
"1574","74","single-stim","50","326322","0.0-11.0-2.0-2.0","afCW5iTivQWvu","intuitive","A4J4GGMKJ68L0","3YT88D1N08Z4K050P4I3MENS0MRK32","3YT88D1N08Z4K050P4I3MENS0MRK32","","img/4_switch.png","4","4","switch","test","3","2","1"
"1031","70","single-stim","51","327354","0.0-11.0-2.0-3.0","afCW5iTivQWvu","intuitive","A4J4GGMKJ68L0","3YT88D1N08Z4K050P4I3MENS0MRK32","3YT88D1N08Z4K050P4I3MENS0MRK32","","img/4_switch.png","4","4","switch","test","1","3","1"
"6689","32","single-stim","52","334044","0.0-12.0-0.0","afCW5iTivQWvu","intuitive","A4J4GGMKJ68L0","3YT88D1N08Z4K050P4I3MENS0MRK32","3YT88D1N08Z4K050P4I3MENS0MRK32","","img/4_transfer.png","4","0","transfer","gotit","","",""
"1350","74","single-stim","53","335396","0.0-12.0-2.0-0.0","afCW5iTivQWvu","intuitive","A4J4GGMKJ68L0","3YT88D1N08Z4K050P4I3MENS0MRK32","3YT88D1N08Z4K050P4I3MENS0MRK32","","img/4_transfer.png","4","0","transfer","test","3","0","1"
"561","70","single-stim","54","335959","0.0-12.0-2.0-1.0","afCW5iTivQWvu","intuitive","A4J4GGMKJ68L0","3YT88D1N08Z4K050P4I3MENS0MRK32","3YT88D1N08Z4K050P4I3MENS0MRK32","","img/4_transfer.png","4","0","transfer","test","0","1","1"
"697","74","single-stim","55","336657","0.0-12.0-2.0-2.0","afCW5iTivQWvu","intuitive","A4J4GGMKJ68L0","3YT88D1N08Z4K050P4I3MENS0MRK32","3YT88D1N08Z4K050P4I3MENS0MRK32","","img/4_transfer.png","4","0","transfer","test","2","2","1"
"915","70","single-stim","56","337574","0.0-12.0-2.0-3.0","afCW5iTivQWvu","intuitive","A4J4GGMKJ68L0","3YT88D1N08Z4K050P4I3MENS0MRK32","3YT88D1N08Z4K050P4I3MENS0MRK32","","img/4_transfer.png","4","0","transfer","test","1","3","1"
"5814","32","single-stim","57","343390","0.0-13.0-0.0","afCW5iTivQWvu","intuitive","A4J4GGMKJ68L0","3YT88D1N08Z4K050P4I3MENS0MRK32","3YT88D1N08Z4K050P4I3MENS0MRK32","","img/2_transfer.png","2","1","transfer","gotit","","",""
"1825","74","single-stim","58","345217","0.0-13.0-2.0-0.0","afCW5iTivQWvu","intuitive","A4J4GGMKJ68L0","3YT88D1N08Z4K050P4I3MENS0MRK32","3YT88D1N08Z4K050P4I3MENS0MRK32","","img/2_transfer.png","2","1","transfer","test","3","0","1"
"806","70","single-stim","59","346025","0.0-13.0-2.0-1.0","afCW5iTivQWvu","intuitive","A4J4GGMKJ68L0","3YT88D1N08Z4K050P4I3MENS0MRK32","3YT88D1N08Z4K050P4I3MENS0MRK32","","img/2_transfer.png","2","1","transfer","test","0","1","1"
"798","70","single-stim","60","346825","0.0-13.0-2.0-2.0","afCW5iTivQWvu","intuitive","A4J4GGMKJ68L0","3YT88D1N08Z4K050P4I3MENS0MRK32","3YT88D1N08Z4K050P4I3MENS0MRK32","","img/2_transfer.png","2","1","transfer","test","1","2","1"
"761","74","single-stim","61","347587","0.0-13.0-2.0-3.0","afCW5iTivQWvu","intuitive","A4J4GGMKJ68L0","3YT88D1N08Z4K050P4I3MENS0MRK32","3YT88D1N08Z4K050P4I3MENS0MRK32","","img/2_transfer.png","2","1","transfer","test","2","3","1"
"5167","32","single-stim","62","352756","0.0-14.0-0.0","afCW5iTivQWvu","intuitive","A4J4GGMKJ68L0","3YT88D1N08Z4K050P4I3MENS0MRK32","3YT88D1N08Z4K050P4I3MENS0MRK32","","img/1_transfer.png","1","2","transfer","gotit","","",""
"1055","70","single-stim","63","353811","0.0-14.0-2.0-0.0","afCW5iTivQWvu","intuitive","A4J4GGMKJ68L0","3YT88D1N08Z4K050P4I3MENS0MRK32","3YT88D1N08Z4K050P4I3MENS0MRK32","","img/1_transfer.png","1","2","transfer","test","1","0","1"
"671","74","single-stim","64","354485","0.0-14.0-2.0-1.0","afCW5iTivQWvu","intuitive","A4J4GGMKJ68L0","3YT88D1N08Z4K050P4I3MENS0MRK32","3YT88D1N08Z4K050P4I3MENS0MRK32","","img/1_transfer.png","1","2","transfer","test","3","1","1"
"1320","74","single-stim","65","355807","0.0-14.0-2.0-2.0","afCW5iTivQWvu","intuitive","A4J4GGMKJ68L0","3YT88D1N08Z4K050P4I3MENS0MRK32","3YT88D1N08Z4K050P4I3MENS0MRK32","","img/1_transfer.png","1","2","transfer","test","2","2","1"
"545","70","single-stim","66","356353","0.0-14.0-2.0-3.0","afCW5iTivQWvu","intuitive","A4J4GGMKJ68L0","3YT88D1N08Z4K050P4I3MENS0MRK32","3YT88D1N08Z4K050P4I3MENS0MRK32","","img/1_transfer.png","1","2","transfer","test","0","3","1"
"5884","32","single-stim","67","362239","0.0-15.0-0.0","afCW5iTivQWvu","intuitive","A4J4GGMKJ68L0","3YT88D1N08Z4K050P4I3MENS0MRK32","3YT88D1N08Z4K050P4I3MENS0MRK32","","img/3_transfer.png","3","3","transfer","gotit","","",""
"2028","74","single-stim","68","364270","0.0-15.0-2.0-0.0","afCW5iTivQWvu","intuitive","A4J4GGMKJ68L0","3YT88D1N08Z4K050P4I3MENS0MRK32","3YT88D1N08Z4K050P4I3MENS0MRK32","","img/3_transfer.png","3","3","transfer","test","2","0","1"
"791","74","single-stim","69","365062","0.0-15.0-2.0-1.0","afCW5iTivQWvu","intuitive","A4J4GGMKJ68L0","3YT88D1N08Z4K050P4I3MENS0MRK32","3YT88D1N08Z4K050P4I3MENS0MRK32","","img/3_transfer.png","3","3","transfer","test","3","1","1"
"2502","70","single-stim","70","367566","0.0-15.0-2.0-2.0","afCW5iTivQWvu","intuitive","A4J4GGMKJ68L0","3YT88D1N08Z4K050P4I3MENS0MRK32","3YT88D1N08Z4K050P4I3MENS0MRK32","","img/3_transfer.png","3","3","transfer","test","1","2","1"
"1278","70","single-stim","71","368846","0.0-15.0-2.0-3.0","afCW5iTivQWvu","intuitive","A4J4GGMKJ68L0","3YT88D1N08Z4K050P4I3MENS0MRK32","3YT88D1N08Z4K050P4I3MENS0MRK32","","img/3_transfer.png","3","3","transfer","test","0","3","1"
"4105","32","single-stim","72","372952","0.0-16.0-0.0","afCW5iTivQWvu","intuitive","A4J4GGMKJ68L0","3YT88D1N08Z4K050P4I3MENS0MRK32","3YT88D1N08Z4K050P4I3MENS0MRK32","","img/0_transfer.png","0","4","transfer","gotit","","",""
"895","70","single-stim","73","373849","0.0-16.0-2.0-0.0","afCW5iTivQWvu","intuitive","A4J4GGMKJ68L0","3YT88D1N08Z4K050P4I3MENS0MRK32","3YT88D1N08Z4K050P4I3MENS0MRK32","","img/0_transfer.png","0","4","transfer","test","2","0","0"
"664","70","single-stim","74","374515","0.0-16.0-2.0-1.0","afCW5iTivQWvu","intuitive","A4J4GGMKJ68L0","3YT88D1N08Z4K050P4I3MENS0MRK32","3YT88D1N08Z4K050P4I3MENS0MRK32","","img/0_transfer.png","0","4","transfer","test","3","1","0"
"508","74","single-stim","75","375025","0.0-16.0-2.0-2.0","afCW5iTivQWvu","intuitive","A4J4GGMKJ68L0","3YT88D1N08Z4K050P4I3MENS0MRK32","3YT88D1N08Z4K050P4I3MENS0MRK32","","img/0_transfer.png","0","4","transfer","test","1","2","0"
"542","74","single-stim","76","375568","0.0-16.0-2.0-3.0","afCW5iTivQWvu","intuitive","A4J4GGMKJ68L0","3YT88D1N08Z4K050P4I3MENS0MRK32","3YT88D1N08Z4K050P4I3MENS0MRK32","","img/0_transfer.png","0","4","transfer","test","0","3","0"
